TENANTID,STUDYID,COUNTRY,SITEID,INVID,INVNAM,USUBJID,SCRNID,SUBJID,VISITNUM,VISIT,UNSCHED,SVSTDTC,DOMAIN,LAB ID,LAB NAME,REPEATNUMBER,SREPEATID,SREPEATNUMBER,ENTERED BY,ENTERED DATE,LAST CHANGED BY,LAST CHANGED DATE,DSCMP,DSCMP_R,DSCMP_F,DSCMP_D,DSSTAT,DSSTAT_R,DSSTAT_F,DSSTAT_D,DSSTATO,DSSTATO_R,DSSTATO_F,DSSTATO_D,DSDAT,DSDAT_R,DSDAT_F,DSDAT_D
"FHIC","IAVI C113","South Africa","101",,"SUESS","178A6F58835A425C832B137726A53A8C","101005","101005","SCRF","Screen Fail",,"2024-06-17","DS",,,,,,"FHIC.PCARDELLA1","2024-06-17","FHIC.PCARDELLA1","2024-06-17","1","Yes","Yes","1","99","Other","Other","99",,,,,,,,
"FHIC","IAVI C113","South Africa","101",,"SUESS","47487050DE774C868F0CA2A813FA9B8D","101026","101026","SCRF","Screen Fail",,"2024-01-01","DS",,,,,,"FHIC.JJAMPIES","2024-07-29","FHIC.JJAMPIES","2024-07-29","0","No","No","0","8","Screen Failure","Screen Failure","8",,,,,"30-Nov-2023","30-Nov-2023","30-Nov-2023","2023-11-30"
"FHIC","IAVI C113","South Africa","101",,"SUESS","5232101D19C4417397F67272CD9F42E7","101047","101047","EW","Early Withdrawal",,"2024-08-08","DS",,,,,,"FHIC.HBRIGDON","2024-08-08","FHIC.HBRIGDON","2024-08-08","0","No","No","0","6","Participant diagnosed with active TB","Participant diagnosed with active TB","6",,,,,"07-Aug-2024","07-Aug-2024","07-Aug-2024","2024-08-07"
"FHIC","IAVI C113","South Africa","101",,"SUESS","5BCF43EF32F840F0916142B39635A74D","101041","101041","EW","Early Withdrawal",,"2024-08-12","DS",,,,,,"FHIC.MFANTON","2024-08-12","FHIC.MFANTON","2024-08-12",,,,,"1","Early Withdrawal due to Adverse Event","Early Withdrawal due to Adverse Event","1",,,,,,,,
"FHIC","IAVI C113","South Africa","101",,"SUESS","9211A180E4BD43049408C4FB8B41AED9","101029","101029","EOS","EOS/D1009",,"2024-07-31","DS",,,,,,"FHIC.JJAMPIES","2024-07-31","FHIC.JJAMPIES","2024-07-31","1","Yes","Yes","1","2","Compelted","Completed","2",,,,,"31-Jul-2024","31-Jul-2024","31-Jul-2024","2024-07-31"
"FHIC","IAVI C113","South Africa","101",,"SUESS","F1D663B24709420D8BF8D108F88652F4","101042","101042","SCRF","Screen Fail",,"2024-03-01","DS",,,,,,"FHIC.MFANTON","2024-08-02","FHIC.MFANTON","2024-08-02","0","No","No","0","8","Screen Failure","Screen Failure","8",,,,,"02-Mar-2024","02-Mar-2024","02-Mar-2024","2024-03-02"
"FHIC","IAVI C113","South Africa","101",,"SUESS","F43AE89FCE6B4A209DD5182824378B46","101006","101006","EOS","EOS/D1009",,"2024-06-17","DS",,,,,,"FHIC.PCARDELLA1","2024-06-17","FHIC.PCARDELLA1","2024-06-17","0","No","No","0","7","Early Withdrawal due to Protocol Deviation","Early Withdrawal due to Protocol Deviation","7",,,,,"11-Jun-2024","11-Jun-2024","11-Jun-2024","2024-06-11"
"FHIC","IAVI C113","South Africa","101",,"SUESS","F43AE89FCE6B4A209DD5182824378B46","101006","101006","EW","Early Withdrawal",,"2024-06-17","DS",,,,,,"FHIC.PCARDELLA1","2024-07-12","FHIC.PCARDELLA1","2024-07-24","1","Yes","Yes","1","4","Lost to follow-up","Lost to follow-up","4",,,,,"02-Jul-2024","02-Jul-2024","02-Jul-2024","2024-07-02"